"success","trial_type","trial_index","time_elapsed","internal_node_id","subject","surveyCode","mturkID","Demographics","condition","rt","stimulus","key_press","responses","button_pressed"
"true","fullscreen","0","4366","0.0-0.0","7735","9554110","[object Object]","[object Object]","4","","","","",""
"","html-keyboard-response","1","7845","0.0-1.0","7735","9554110","[object Object]","[object Object]","4","3458","Welcome to the experiment. Press any key to begin.","13","",""
"","survey-text","2","12628","0.0-2.0","7735","9554110","[object Object]","[object Object]","4","4776","","","{""Q0"":""A2A6FH0F7LD9ND""}",""
"","html-button-response","3","20501","0.0-3.0","7735","9554110","[object Object]","[object Object]","4","7867","<p> Consent Form. <p><p> In this experiment you will watch videos of children interacting.<p><p> You will be asked questions about each video that you watch. <p><p> Your responses will be anonymised and saved at the end of the experiment.<p><p> You can withdraw from the experiment any time without penalty or loss of benefits to which you are otherwise entitled. You can withdraw by pressing the ESC button during the experiment, or by contacting the researchers after completing the experiment. <p><p> If you have any questions please contact Severin Lemaignan at severin.lemaignan@uwe.ac.uk <p><p> <p><p> Please indicate below if you consent to participate in this study. (If you choose not to consent, press ESC to leave the experiment window.) <p>","","","0"
"","survey-text","4","35276","0.0-4.0","7735","9554110","[object Object]","[object Object]","4","14769","","","{""Q0"":""54"",""Q1"":""american"",""Q2"":""english"",""Q3"":""high school graduation""}",""
"","survey-likert","5","37085","0.0-5.0","7735","9554110","[object Object]","[object Object]","4","1803","","","{""Q0"":1}",""
"","html-keyboard-response","6","42260","0.0-6.0","7735","9554110","[object Object]","[object Object]","4","5173","<p>During this experiment you will be shown 4 short videos of children interacting.</p><p> Pay particular attention to the way the children interact. </p><p> After each video you will be asked some questions about what you have watched. <p/><p>Press any key to begin.</p>","80","",""
"","video","7","83243","0.0-7.0-0.0","7735","9554110","[object Object]","[object Object]","4","","[""clips/raw-2017-06-13-110008089945-fight.mp4""]","","",""
"","survey-text","8","113158","0.0-7.0-1.0","7735","9554110","[object Object]","[object Object]","4","29911","","","{""Q0"":""the boy was very controlling. he stopped the girl from ding things at least three times. this is annoying to me. reminds me of my little brother even as an adult.""}",""
"","survey-text","9","121855","0.0-7.0-2.0","7735","9554110","[object Object]","[object Object]","4","8692","","","{""Q0"":""6 or 7""}",""
"","survey-likert","10","124831","0.0-7.0-3.0","7735","9554110","[object Object]","[object Object]","4","2972","","","{""Q0"":1}",""
"","survey-likert","11","128967","0.0-7.0-4.0","7735","9554110","[object Object]","[object Object]","4","4132","","","{""Q0"":1}",""
"","survey-likert","12","134080","0.0-7.0-5.0","7735","9554110","[object Object]","[object Object]","4","5106","","","{""Q0"":2}",""
"","survey-likert","13","142809","0.0-7.0-6.0","7735","9554110","[object Object]","[object Object]","4","8724","","","{""Q0"":0,""Q1"":3}",""
"","survey-likert","14","148625","0.0-7.0-7.0","7735","9554110","[object Object]","[object Object]","4","5809","","","{""Q0"":3,""Q1"":0}",""
"","survey-likert","15","156993","0.0-7.0-8.0","7735","9554110","[object Object]","[object Object]","4","8362","","","{""Q0"":1,""Q1"":4}",""
"","survey-likert","16","164129","0.0-7.0-9.0","7735","9554110","[object Object]","[object Object]","4","7129","","","{""Q0"":3,""Q1"":2}",""
"","survey-likert","17","169137","0.0-7.0-10.0","7735","9554110","[object Object]","[object Object]","4","5000","","","{""Q0"":1,""Q1"":4}",""
"","survey-likert","18","178130","0.0-7.0-11.0","7735","9554110","[object Object]","[object Object]","4","8987","","","{""Q0"":4,""Q1"":4}",""
"","survey-likert","19","184953","0.0-7.0-12.0","7735","9554110","[object Object]","[object Object]","4","6811","","","{""Q0"":2,""Q1"":2}",""
"","survey-likert","20","192922","0.0-7.0-13.0","7735","9554110","[object Object]","[object Object]","4","7963","","","{""Q0"":3,""Q1"":2}",""
"","survey-likert","21","198218","0.0-7.0-14.0","7735","9554110","[object Object]","[object Object]","4","5290","","","{""Q0"":1,""Q1"":2}",""
"","survey-likert","22","202658","0.0-7.0-15.0","7735","9554110","[object Object]","[object Object]","4","4435","","","{""Q0"":1,""Q1"":3}",""
"","survey-likert","23","207403","0.0-7.0-16.0","7735","9554110","[object Object]","[object Object]","4","4738","","","{""Q0"":1,""Q1"":1}",""
"","video","24","241547","0.0-7.0-0.1","7735","9554110","[object Object]","[object Object]","4","","[""clips/raw-2017-06-13-140354392253-laugh.mp4""]","","",""
"","survey-text","25","263091","0.0-7.0-1.1","7735","9554110","[object Object]","[object Object]","4","21537","","","{""Q0"":""The girl on the right was very mean and the left sided girl was happy and amused.""}",""
"","survey-text","26","266819","0.0-7.0-2.1","7735","9554110","[object Object]","[object Object]","4","3724","","","{""Q0"":""8""}",""
"","survey-likert","27","271212","0.0-7.0-3.1","7735","9554110","[object Object]","[object Object]","4","4387","","","{""Q0"":2}",""
"","survey-likert","28","274428","0.0-7.0-4.1","7735","9554110","[object Object]","[object Object]","4","3209","","","{""Q0"":0}",""
"","survey-likert","29","276548","0.0-7.0-5.1","7735","9554110","[object Object]","[object Object]","4","2114","","","{""Q0"":2}",""
"","survey-likert","30","282476","0.0-7.0-6.1","7735","9554110","[object Object]","[object Object]","4","5922","","","{""Q0"":0,""Q1"":3}",""
"","survey-likert","31","287405","0.0-7.0-7.1","7735","9554110","[object Object]","[object Object]","4","4923","","","{""Q0"":3,""Q1"":1}",""
"","survey-likert","32","291069","0.0-7.0-8.1","7735","9554110","[object Object]","[object Object]","4","3659","","","{""Q0"":1,""Q1"":3}",""
"","survey-likert","33","296837","0.0-7.0-9.1","7735","9554110","[object Object]","[object Object]","4","5759","","","{""Q0"":4,""Q1"":1}",""
"","survey-likert","34","302734","0.0-7.0-10.1","7735","9554110","[object Object]","[object Object]","4","5889","","","{""Q0"":1,""Q1"":4}",""
"","survey-likert","35","308757","0.0-7.0-11.1","7735","9554110","[object Object]","[object Object]","4","6016","","","{""Q0"":2,""Q1"":4}",""
"","survey-likert","36","312877","0.0-7.0-12.1","7735","9554110","[object Object]","[object Object]","4","4114","","","{""Q0"":1,""Q1"":3}",""
"","survey-likert","37","316957","0.0-7.0-13.1","7735","9554110","[object Object]","[object Object]","4","4073","","","{""Q0"":1,""Q1"":3}",""
"","survey-likert","38","323334","0.0-7.0-14.1","7735","9554110","[object Object]","[object Object]","4","6371","","","{""Q0"":2,""Q1"":1}",""
"","survey-likert","39","327390","0.0-7.0-15.1","7735","9554110","[object Object]","[object Object]","4","4049","","","{""Q0"":0,""Q1"":3}",""
"","survey-likert","40","331695","0.0-7.0-16.1","7735","9554110","[object Object]","[object Object]","4","4297","","","{""Q0"":3,""Q1"":1}",""
"","video","41","370886","0.0-7.0-0.2","7735","9554110","[object Object]","[object Object]","4","","[""clips/raw-2017-06-27-105946305604-laughing.mp4""]","","",""
"","survey-text","42","390198","0.0-7.0-1.2","7735","9554110","[object Object]","[object Object]","4","19307","","","{""Q0"":""The kid on the right was happy and smiling. The kid on the left was serious.""}",""
"","survey-text","43","393646","0.0-7.0-2.2","7735","9554110","[object Object]","[object Object]","4","3443","","","{""Q0"":""9""}",""
"","survey-likert","44","396535","0.0-7.0-3.2","7735","9554110","[object Object]","[object Object]","4","2877","","","{""Q0"":0}",""
"","survey-likert","45","399672","0.0-7.0-4.2","7735","9554110","[object Object]","[object Object]","4","3131","","","{""Q0"":2}",""
"","survey-likert","46","401480","0.0-7.0-5.2","7735","9554110","[object Object]","[object Object]","4","1803","","","{""Q0"":1}",""
"","survey-likert","47","408000","0.0-7.0-6.2","7735","9554110","[object Object]","[object Object]","4","6512","","","{""Q0"":2,""Q1"":1}",""
"","survey-likert","48","412457","0.0-7.0-7.2","7735","9554110","[object Object]","[object Object]","4","4449","","","{""Q0"":2,""Q1"":3}",""
"","survey-likert","49","416984","0.0-7.0-8.2","7735","9554110","[object Object]","[object Object]","4","4519","","","{""Q0"":3,""Q1"":2}",""
"","survey-likert","50","422568","0.0-7.0-9.2","7735","9554110","[object Object]","[object Object]","4","5576","","","{""Q0"":2,""Q1"":3}",""
"","survey-likert","51","428329","0.0-7.0-10.2","7735","9554110","[object Object]","[object Object]","4","5754","","","{""Q0"":2,""Q1"":1}",""
"","survey-likert","52","432474","0.0-7.0-11.2","7735","9554110","[object Object]","[object Object]","4","4138","","","{""Q0"":4,""Q1"":3}",""
"","survey-likert","53","437905","0.0-7.0-12.2","7735","9554110","[object Object]","[object Object]","4","5421","","","{""Q0"":1,""Q1"":1}",""
"","survey-likert","54","442970","0.0-7.0-13.2","7735","9554110","[object Object]","[object Object]","4","5059","","","{""Q0"":3,""Q1"":1}",""
"","survey-likert","55","447658","0.0-7.0-14.2","7735","9554110","[object Object]","[object Object]","4","4678","","","{""Q0"":2,""Q1"":3}",""
"","survey-likert","56","453345","0.0-7.0-15.2","7735","9554110","[object Object]","[object Object]","4","5680","","","{""Q0"":2,""Q1"":0}",""
"","survey-likert","57","457266","0.0-7.0-16.2","7735","9554110","[object Object]","[object Object]","4","3910","","","{""Q0"":1,""Q1"":4}",""
"","video","58","496424","0.0-7.0-0.3","7735","9554110","[object Object]","[object Object]","4","","[""clips/raw-2017-06-16-110134843091-turntaking.mp4""]","","",""
"","survey-text","59","510345","0.0-7.0-1.3","7735","9554110","[object Object]","[object Object]","4","13915","","","{""Q0"":""They were respecting one another and not being too agressive at all.""}",""
"","survey-text","60","514202","0.0-7.0-2.3","7735","9554110","[object Object]","[object Object]","4","3847","","","{""Q0"":""9""}",""
"","survey-likert","61","516594","0.0-7.0-3.3","7735","9554110","[object Object]","[object Object]","4","2385","","","{""Q0"":0}",""
"","survey-likert","62","518866","0.0-7.0-4.3","7735","9554110","[object Object]","[object Object]","4","2264","","","{""Q0"":0}",""
"","survey-likert","63","520795","0.0-7.0-5.3","7735","9554110","[object Object]","[object Object]","4","1922","","","{""Q0"":0}",""
"","survey-likert","64","524458","0.0-7.0-6.3","7735","9554110","[object Object]","[object Object]","4","3655","","","{""Q0"":0,""Q1"":0}",""
"","survey-likert","65","528451","0.0-7.0-7.3","7735","9554110","[object Object]","[object Object]","4","3984","","","{""Q0"":4,""Q1"":4}",""
"","survey-likert","66","532531","0.0-7.0-8.3","7735","9554110","[object Object]","[object Object]","4","4072","","","{""Q0"":1,""Q1"":1}",""
"","survey-likert","67","537261","0.0-7.0-9.3","7735","9554110","[object Object]","[object Object]","4","4718","","","{""Q0"":3,""Q1"":3}",""
"","survey-likert","68","541236","0.0-7.0-10.3","7735","9554110","[object Object]","[object Object]","4","3965","","","{""Q0"":0,""Q1"":0}",""
"","survey-likert","69","544852","0.0-7.0-11.3","7735","9554110","[object Object]","[object Object]","4","3606","","","{""Q0"":4,""Q1"":4}",""
"","survey-likert","70","550036","0.0-7.0-12.3","7735","9554110","[object Object]","[object Object]","4","5173","","","{""Q0"":0,""Q1"":0}",""
"","survey-likert","71","553796","0.0-7.0-13.3","7735","9554110","[object Object]","[object Object]","4","3753","","","{""Q0"":1,""Q1"":1}",""
"","survey-likert","72","556948","0.0-7.0-14.3","7735","9554110","[object Object]","[object Object]","4","3136","","","{""Q0"":3,""Q1"":3}",""
"","survey-likert","73","562468","0.0-7.0-15.3","7735","9554110","[object Object]","[object Object]","4","5511","","","{""Q0"":1,""Q1"":0}",""
"","survey-likert","74","566869","0.0-7.0-16.3","7735","9554110","[object Object]","[object Object]","4","4391","","","{""Q0"":2,""Q1"":3}",""
"","html-keyboard-response","75","570356","0.0-8.0","7735","9554110","[object Object]","[object Object]","4","3481","<p>Debrief.<br /> This study examines what types of information humans can gain from observing people's movements in a social interaction. <br /> We showed you the original versions of videos of social interactions showing real people. <br /> Other participants will have watched skeleton versions showing stick-figures. <br /> We want to know what people can work out about the interaction from watching the stick figures (movement only) compared to the original videos. <br /> If you have any questions please contact Severin Lemaignan at severin.lemaignan@uwe.ac.uk <br /> Press any key to continue. </p>","80","",""
