"success","trial_type","trial_index","time_elapsed","internal_node_id","subject","surveyCode","mturkID","Demographics","condition","rt","stimulus","key_press","responses","button_pressed"
"true","fullscreen","0","2458","0.0-0.0","9115","1866356","[object Object]","[object Object]","4","","","","",""
"","html-keyboard-response","1","4647","0.0-1.0","9115","1866356","[object Object]","[object Object]","4","2184","Welcome to the experiment. Press any key to begin.","78","",""
"","survey-text","2","7377","0.0-2.0","9115","1866356","[object Object]","[object Object]","4","2727","","","{""Q0"":""A1TARNH07A75CG""}",""
"","html-button-response","3","12025","0.0-3.0","9115","1866356","[object Object]","[object Object]","4","4645","<p> Consent Form. <p><p> In this experiment you will watch videos of children interacting.<p><p> You will be asked questions about each video that you watch. <p><p> Your responses will be anonymised and saved at the end of the experiment.<p><p> You can withdraw from the experiment any time without penalty or loss of benefits to which you are otherwise entitled. You can withdraw by pressing the ESC button during the experiment, or by contacting the researchers after completing the experiment. <p><p> If you have any questions please contact Severin Lemaignan at severin.lemaignan@uwe.ac.uk <p><p> <p><p> Please indicate below if you consent to participate in this study. (If you choose not to consent, press ESC to leave the experiment window.) <p>","","","0"
"","survey-text","4","21945","0.0-4.0","9115","1866356","[object Object]","[object Object]","4","9916","","","{""Q0"":""27"",""Q1"":""american"",""Q2"":""english"",""Q3"":""bachelors ""}",""
"","survey-likert","5","23461","0.0-5.0","9115","1866356","[object Object]","[object Object]","4","1512","","","{""Q0"":0}",""
"","html-keyboard-response","6","32253","0.0-6.0","9115","1866356","[object Object]","[object Object]","4","8789","<p>During this experiment you will be shown 4 short videos of children interacting.</p><p> Pay particular attention to the way the children interact. </p><p> After each video you will be asked some questions about what you have watched. <p/><p>Press any key to begin.</p>","32","",""
"","video","7","77541","0.0-7.0-0.0","9115","1866356","[object Object]","[object Object]","4","","[""clips/raw-2017-06-22-101045562870-playing.mp4""]","","",""
"","survey-text","8","90105","0.0-7.0-1.0","9115","1866356","[object Object]","[object Object]","4","12560","","","{""Q0"":""They copied each other ""}",""
"","survey-text","9","96656","0.0-7.0-2.0","9115","1866356","[object Object]","[object Object]","4","6548","","","{""Q0"":""7""}",""
"","survey-likert","10","100124","0.0-7.0-3.0","9115","1866356","[object Object]","[object Object]","4","3464","","","{""Q0"":0}",""
"","survey-likert","11","102996","0.0-7.0-4.0","9115","1866356","[object Object]","[object Object]","4","2869","","","{""Q0"":0}",""
"","survey-likert","12","105429","0.0-7.0-5.0","9115","1866356","[object Object]","[object Object]","4","2429","","","{""Q0"":0}",""
"","survey-likert","13","114076","0.0-7.0-6.0","9115","1866356","[object Object]","[object Object]","4","8644","","","{""Q0"":1,""Q1"":3}",""
"","survey-likert","14","118620","0.0-7.0-7.0","9115","1866356","[object Object]","[object Object]","4","4541","","","{""Q0"":4,""Q1"":4}",""
"","survey-likert","15","121596","0.0-7.0-8.0","9115","1866356","[object Object]","[object Object]","4","2970","","","{""Q0"":0,""Q1"":0}",""
"","survey-likert","16","125611","0.0-7.0-9.0","9115","1866356","[object Object]","[object Object]","4","4012","","","{""Q0"":4,""Q1"":4}",""
"","survey-likert","17","128259","0.0-7.0-10.0","9115","1866356","[object Object]","[object Object]","4","2644","","","{""Q0"":0,""Q1"":0}",""
"","survey-likert","18","136179","0.0-7.0-11.0","9115","1866356","[object Object]","[object Object]","4","7917","","","{""Q0"":4,""Q1"":4}",""
"","survey-likert","19","138901","0.0-7.0-12.0","9115","1866356","[object Object]","[object Object]","4","2717","","","{""Q0"":0,""Q1"":0}",""
"","survey-likert","20","141604","0.0-7.0-13.0","9115","1866356","[object Object]","[object Object]","4","2698","","","{""Q0"":0,""Q1"":0}",""
"","survey-likert","21","144427","0.0-7.0-14.0","9115","1866356","[object Object]","[object Object]","4","2819","","","{""Q0"":4,""Q1"":4}",""
"","survey-likert","22","147195","0.0-7.0-15.0","9115","1866356","[object Object]","[object Object]","4","2765","","","{""Q0"":0,""Q1"":0}",""
"","survey-likert","23","150643","0.0-7.0-16.0","9115","1866356","[object Object]","[object Object]","4","3444","","","{""Q0"":4,""Q1"":4}",""
"","video","24","185103","0.0-7.0-0.1","9115","1866356","[object Object]","[object Object]","4","","[""clips/raw-2017-06-22-111246014789-jointtask.mp4""]","","",""
"","survey-text","25","197377","0.0-7.0-1.1","9115","1866356","[object Object]","[object Object]","4","12272","","","{""Q0"":""they worked together \n""}",""
"","survey-text","26","204953","0.0-7.0-2.1","9115","1866356","[object Object]","[object Object]","4","7575","","","{""Q0"":""11""}",""
"","survey-likert","27","208701","0.0-7.0-3.1","9115","1866356","[object Object]","[object Object]","4","3745","","","{""Q0"":0}",""
"","survey-likert","28","210973","0.0-7.0-4.1","9115","1866356","[object Object]","[object Object]","4","2265","","","{""Q0"":0}",""
"","survey-likert","29","213260","0.0-7.0-5.1","9115","1866356","[object Object]","[object Object]","4","2284","","","{""Q0"":0}",""
"","survey-likert","30","218421","0.0-7.0-6.1","9115","1866356","[object Object]","[object Object]","4","5157","","","{""Q0"":3,""Q1"":0}",""
"","survey-likert","31","222685","0.0-7.0-7.1","9115","1866356","[object Object]","[object Object]","4","4262","","","{""Q0"":4,""Q1"":4}",""
"","survey-likert","32","225908","0.0-7.0-8.1","9115","1866356","[object Object]","[object Object]","4","3216","","","{""Q0"":0,""Q1"":0}",""
"","survey-likert","33","228924","0.0-7.0-9.1","9115","1866356","[object Object]","[object Object]","4","3012","","","{""Q0"":3,""Q1"":4}",""
"","survey-likert","34","231958","0.0-7.0-10.1","9115","1866356","[object Object]","[object Object]","4","3028","","","{""Q0"":1,""Q1"":0}",""
"","survey-likert","35","235876","0.0-7.0-11.1","9115","1866356","[object Object]","[object Object]","4","3915","","","{""Q0"":3,""Q1"":4}",""
"","survey-likert","36","238275","0.0-7.0-12.1","9115","1866356","[object Object]","[object Object]","4","2396","","","{""Q0"":0,""Q1"":0}",""
"","survey-likert","37","240733","0.0-7.0-13.1","9115","1866356","[object Object]","[object Object]","4","2452","","","{""Q0"":0,""Q1"":0}",""
"","survey-likert","38","242963","0.0-7.0-14.1","9115","1866356","[object Object]","[object Object]","4","2226","","","{""Q0"":4,""Q1"":4}",""
"","survey-likert","39","246052","0.0-7.0-15.1","9115","1866356","[object Object]","[object Object]","4","3085","","","{""Q0"":0,""Q1"":0}",""
"","survey-likert","40","249704","0.0-7.0-16.1","9115","1866356","[object Object]","[object Object]","4","3645","","","{""Q0"":4,""Q1"":4}",""
"","video","41","292431","0.0-7.0-0.2","9115","1866356","[object Object]","[object Object]","4","","[""clips/raw-2017-06-27-143652394670-turntaking.mp4""]","","",""
"","survey-text","42","302072","0.0-7.0-1.2","9115","1866356","[object Object]","[object Object]","4","9637","","","{""Q0"":""They didn't speak ""}",""
"","survey-text","43","304600","0.0-7.0-2.2","9115","1866356","[object Object]","[object Object]","4","2525","","","{""Q0"":""6""}",""
"","survey-likert","44","306515","0.0-7.0-3.2","9115","1866356","[object Object]","[object Object]","4","1913","","","{""Q0"":1}",""
"","survey-likert","45","308500","0.0-7.0-4.2","9115","1866356","[object Object]","[object Object]","4","1980","","","{""Q0"":1}",""
"","survey-likert","46","310788","0.0-7.0-5.2","9115","1866356","[object Object]","[object Object]","4","2282","","","{""Q0"":1}",""
"","survey-likert","47","315652","0.0-7.0-6.2","9115","1866356","[object Object]","[object Object]","4","4858","","","{""Q0"":0,""Q1"":1}",""
"","survey-likert","48","319460","0.0-7.0-7.2","9115","1866356","[object Object]","[object Object]","4","3803","","","{""Q0"":2,""Q1"":3}",""
"","survey-likert","49","322044","0.0-7.0-8.2","9115","1866356","[object Object]","[object Object]","4","2580","","","{""Q0"":0,""Q1"":0}",""
"","survey-likert","50","330507","0.0-7.0-9.2","9115","1866356","[object Object]","[object Object]","4","8458","","","{""Q0"":2,""Q1"":3}",""
"","survey-likert","51","332716","0.0-7.0-10.2","9115","1866356","[object Object]","[object Object]","4","2202","","","{""Q0"":0,""Q1"":0}",""
"","survey-likert","52","337347","0.0-7.0-11.2","9115","1866356","[object Object]","[object Object]","4","4626","","","{""Q0"":1,""Q1"":3}",""
"","survey-likert","53","343404","0.0-7.0-12.2","9115","1866356","[object Object]","[object Object]","4","6052","","","{""Q0"":3,""Q1"":0}",""
"","survey-likert","54","346924","0.0-7.0-13.2","9115","1866356","[object Object]","[object Object]","4","3514","","","{""Q0"":2,""Q1"":0}",""
"","survey-likert","55","350085","0.0-7.0-14.2","9115","1866356","[object Object]","[object Object]","4","3155","","","{""Q0"":1,""Q1"":4}",""
"","survey-likert","56","352228","0.0-7.0-15.2","9115","1866356","[object Object]","[object Object]","4","2138","","","{""Q0"":0,""Q1"":0}",""
"","survey-likert","57","355651","0.0-7.0-16.2","9115","1866356","[object Object]","[object Object]","4","3419","","","{""Q0"":1,""Q1"":4}",""
"","video","58","390228","0.0-7.0-0.3","9115","1866356","[object Object]","[object Object]","4","","[""clips/raw-2017-06-26-112331105839-1task1watch.mp4""]","","",""
"","survey-text","59","399833","0.0-7.0-1.3","9115","1866356","[object Object]","[object Object]","4","9601","","","{""Q0"":""The girl told the boy where to press ""}",""
"","survey-text","60","404040","0.0-7.0-2.3","9115","1866356","[object Object]","[object Object]","4","4204","","","{""Q0"":""10""}",""
"","survey-likert","61","405764","0.0-7.0-3.3","9115","1866356","[object Object]","[object Object]","4","1719","","","{""Q0"":0}",""
"","survey-likert","62","409132","0.0-7.0-4.3","9115","1866356","[object Object]","[object Object]","4","3362","","","{""Q0"":1}",""
"","survey-likert","63","411685","0.0-7.0-5.3","9115","1866356","[object Object]","[object Object]","4","2549","","","{""Q0"":0}",""
"","survey-likert","64","415251","0.0-7.0-6.3","9115","1866356","[object Object]","[object Object]","4","3563","","","{""Q0"":0,""Q1"":4}",""
"","survey-likert","65","418701","0.0-7.0-7.3","9115","1866356","[object Object]","[object Object]","4","3445","","","{""Q0"":4,""Q1"":4}",""
"","survey-likert","66","421717","0.0-7.0-8.3","9115","1866356","[object Object]","[object Object]","4","3010","","","{""Q0"":0,""Q1"":2}",""
"","survey-likert","67","425946","0.0-7.0-9.3","9115","1866356","[object Object]","[object Object]","4","4223","","","{""Q0"":4,""Q1"":4}",""
"","survey-likert","68","430507","0.0-7.0-10.3","9115","1866356","[object Object]","[object Object]","4","4554","","","{""Q0"":0,""Q1"":0}",""
"","survey-likert","69","434100","0.0-7.0-11.3","9115","1866356","[object Object]","[object Object]","4","3586","","","{""Q0"":4,""Q1"":1}",""
"","survey-likert","70","436188","0.0-7.0-12.3","9115","1866356","[object Object]","[object Object]","4","2080","","","{""Q0"":0,""Q1"":0}",""
"","survey-likert","71","438492","0.0-7.0-13.3","9115","1866356","[object Object]","[object Object]","4","2299","","","{""Q0"":0,""Q1"":0}",""
"","survey-likert","72","440556","0.0-7.0-14.3","9115","1866356","[object Object]","[object Object]","4","2057","","","{""Q0"":4,""Q1"":4}",""
"","survey-likert","73","442739","0.0-7.0-15.3","9115","1866356","[object Object]","[object Object]","4","2178","","","{""Q0"":0,""Q1"":0}",""
"","survey-likert","74","450115","0.0-7.0-16.3","9115","1866356","[object Object]","[object Object]","4","7370","","","{""Q0"":4,""Q1"":4}",""
"","html-keyboard-response","75","452294","0.0-8.0","9115","1866356","[object Object]","[object Object]","4","2172","<p>Debrief.<br /> This study examines what types of information humans can gain from observing people's movements in a social interaction. <br /> We showed you the original versions of videos of social interactions showing real people. <br /> Other participants will have watched skeleton versions showing stick-figures. <br /> We want to know what people can work out about the interaction from watching the stick figures (movement only) compared to the original videos. <br /> If you have any questions please contact Severin Lemaignan at severin.lemaignan@uwe.ac.uk <br /> Press any key to continue. </p>","32","",""
